Folder: OZA_PhD/Chapter_3/IR

Note: README.md
# OZA_PhD


This repository contains data from the thesis entitled 'IMPROVING THE PERFORMANCE OF ORGANIC THERMOELECTRICS'

File: ir_c2_f7_melt.csv
,Wavenumber,Absorbance,film
0,399.496,1.163,doped PBTTT
1,400.46,1.257,doped PBTTT
2,401.424,1.326,doped PBTTT
3,402.389,1.346,doped PBTTT
4,403.353,1.34,doped PBTTT
5,404.317,1.353,doped PBTTT
6,405.281,1.423,doped PBTTT
7,406.246,1.579,doped PBTTT
8,407.21,1.837,doped PBTTT
9,408.174,2.099,doped PBTTT
10,409.138,2.098,doped PBTTT
11,410.102,1.814,doped PBTTT
12,411.067,1.564,doped PBTTT
13,412.031,1.41,doped PBTTT
14,412.995,1.326,doped PBTTT
15,413.959,1.289,doped PBTTT
16,414.924,1.277,doped PBTTT
17,415.888,1.276,doped PBTTT
18,416.852,1.277,doped PBTTT
19,417.816,1.272,doped PBTTT
20,418.781,1.256,doped PBTTT
21,419.745,1.225,doped PBTTT
22,420.709,1.183,doped PBTTT
23,421.673,1.14,doped PBTTT
24,422.637,1.104,doped PBTTT
25,423.602,1.083,doped PBTTT
26,424.566,1.08,doped PBTTT
27,425.53,1.099,doped PBTTT
28,426.494,1.139,doped PBTTT
29,427.459,1.195,doped PBTTT
30,428.423,1.255,doped PBTTT
31,429.387,1.305,doped PBTTT
32,430.351,1.329,doped PBTTT
33,431.316,1.321,doped PBTTT
34,432.28,1.293,doped PBTTT
35,433.244,1.259,doped PBTTT
36,434.208,1.229,doped PBTTT
37,435.173,1.206,doped PBTTT
38,436.137,1.187,doped PBTTT
39,437.101,1.17,doped PBTTT
40,438.065,1.158,doped PBTTT
41,439.029,1.151,doped PBTTT
42,439.994,1.153,doped PBTTT
43,440.958,1.16,doped PBTTT
44,441.922,1.165,doped PBTTT
45,442.886,1.158,doped PBTTT
46,443.851,1.135,doped PBTTT
47,444.815,1.101,doped PBTTT
48,445.779,1.067,doped PBTTT
49,446.743,1.038,doped PBTTT
50,447.708,1.019,doped PBTTT
51,448.672,1.006,doped PBTTT
52,449.636,0.9983,doped PBTTT
53,450.6,0.9928,doped PBTTT
54,451.564,0.9877,doped PBTTT
55,452.529,0.9812,doped PBTTT
56,453.493,0.9707,doped PBTTT
57,454.457,0.9538,doped PBTTT
58,455.421,0.9304,doped PBTTT
59,456.386,0.9043,doped PBTTT
60,457.35,0.8822,doped PBTTT
61,458.314,0.8703,doped PBTTT
62,459.278,0.8692,doped PBTTT
63,460.243,0.8731,doped PBTTT
64,461.207,0.8729,doped PBTTT
65,462.171,0.8616,doped PBTTT
66,463.135,0.8394,doped PBTTT
67,464.1,0.8122,doped PBTTT
68,465.064,0.7883,doped PBTTT
69,466.028,0.7732,doped PBTTT
70,466.992,0.7675,doped PBTTT
71,467.956,0.7668,doped PBTTT
72,468.921,0.7648,doped PBTTT
73,469.885,0.7569,doped PBTTT
74,470.849,0.743,doped PBTTT
75,471.813,0.7273,doped PBTTT
76,472.778,0.7152,doped PBTTT
77,473.742,0.7091,doped PBTTT
78,474.706,0.7075,doped PBTTT
79,475.67,0.7062,doped PBTTT
80,476.635,0.7014,doped PBTTT
81,477.599,0.6917,doped PBTTT
82,478.563,0.6784,doped PBTTT
83,479.527,0.6643,doped PBTTT
84,480.491,0.6521,doped PBTTT
85,481.456,0.6435,doped PBTTT
86,482.42,0.6383,doped PBTTT
87,483.384,0.6352,doped PBTTT
88,484.348,0.6323,doped PBTTT
89,485.313,0.6279,doped PBTTT
90,486.277,0.6211,doped PBTTT
91,487.241,0.6125,doped PBTTT
92,488.205,0.6035,doped PBTTT
93,489.17,0.5958,doped PBTTT
94,490.134,0.5909,doped PBTTT
95,491.098,0.5889,doped PBTTT
96,492.062,0.5883,doped PBTTT
97,493.027,0.5868,doped PBTTT
98,493.991,0.5822,doped PBTTT
99,494.955,0.5736,doped PBTTT
100,495.919,0.5618,doped PBTTT
101,496.883,0.5486,doped PBTTT
102,497.848,0.536,doped PBTTT
103,498.812,0.525,doped PBTTT
104,499.776,0.5165,doped PBTTT
105,500.74,0.5105,doped PBTTT
106,501.705,0.5067,doped PBTTT
107,502.669,0.5044,doped PBTTT
108,503.633,0.5024,doped PBTTT
109,504.597,0.4994,doped PBTTT
110,505.562,0.4945,doped PBTTT
111,506.526,0.4874,doped PBTTT
112,507.49,0.4787,doped PBTTT
113,508.454,0.4697,doped PBTTT
114,509.418,0.4622,doped PBTTT
115,510.383,0.4574,doped PBTTT
116,511.347,0.4559,doped PBTTT
117,512.311,0.4569,doped PBTTT
118,513.275,0.4592,doped PBTTT
119,514.24,0.4607,doped PBTTT
120,515.204,0.4598,doped PBTTT
121,516.168,0.4559,doped PBTTT
122,517.132,0.4492,doped PBTTT
123,518.097,0.4411,doped PBTTT
124,519.061,0.4335,doped PBTTT
125,520.025,0.4272,doped PBTTT
126,520.989,0.4225,doped PBTTT
127,521.954,0.419,doped PBTTT
128,522.918,0.4162,doped PBTTT
129,523.882,0.4137,doped PBTTT
130,524.846,0.4116,doped PBTTT
131,525.81,0.41,doped PBTTT
132,526.775,0.4087,doped PBTTT
133,527.739,0.4075,doped PBTTT
134,528.703,0.4063,doped PBTTT
135,529.667,0.4048,doped PBTTT
136,530.632,0.4031,doped PBTTT
137,531.596,0.4012,doped PBTTT
138,532.56,0.3989,doped PBTTT
139,533.524,0.3964,doped PBTTT
140,534.489,0.3938,doped PBTTT
141,535.453,0.3916,doped PBTTT
142,536.417,0.3902,doped PBTTT
143,537.381,0.3898,doped PBTTT
144,538.346,0.3901,doped PBTTT
145,539.31,0.3904,doped PBTTT
146,540.274,0.3902,doped PBTTT
147,541.238,0.3891,doped PBTTT
148,542.202,0.3872,doped PBTTT
149,543.167,0.3851,doped PBTTT
150,544.131,0.3832,doped PBTTT
151,545.095,0.3821,doped PBTTT
152,546.059,0.3815,doped PBTTT
153,547.024,0.3812,doped PBTTT
154,547.988,0.3808,doped PBTTT
155,548.952,0.3804,doped PBTTT
156,549.916,0.3801,doped PBTTT
157,550.881,0.3802,doped PBTTT
158,551.845,0.3806,doped PBTTT
159,552.809,0.3812,doped PBTTT
160,553.773,0.3817,doped PBTTT
161,554.737,0.3819,doped PBTTT
162,555.702,0.3818,doped PBTTT
163,556.666,0.3815,doped PBTTT
164,557.63,0.3814,doped PBTTT
165,558.594,0.3816,doped PBTTT
166,559.559,0.3821,doped PBTTT
167,560.523,0.3828,doped PBTTT
168,561.487,0.3835,doped PBTTT
169,562.451,0.384,doped PBTTT
170,563.416,0.3842,doped PBTTT
171,564.38,0.3841,doped PBTTT
172,565.344,0.3838,doped PBTTT
173,566.308,0.3834,doped PBTTT
174,567.273,0.3833,doped PBTTT
175,568.237,0.3835,doped PBTTT
176,569.201,0.3842,doped PBTTT
177,570.165,0.3852,doped PBTTT
178,571.129,0.3863,doped PBTTT
179,572.094,0.3876,doped PBTTT
180,573.058,0.3892,doped PBTTT
181,574.022,0.3912,doped PBTTT
182,574.986,0.3938,doped PBTTT
183,575.951,0.3968,doped PBTTT
184,576.915,0.3997,doped PBTTT
185,577.879,0.402,doped PBTTT
186,578.843,0.4032,doped PBTTT
187,579.808,0.4032,doped PBTTT
188,580.772,0.4025,doped PBTTT
189,581.736,0.4018,doped PBTTT
190,582.7,0.4017,doped PBTTT
191,583.664,0.4027,doped PBTTT
192,584.629,0.4049,doped PBTTT
193,585.593,0.408,doped PBTTT
194,586.557,0.4116,doped PBTTT
195,587.521,0.4153,doped PBTTT
196,588.486,0.4188,doped PBTTT
197,589.45,0.4219,doped PBTTT
198,590.414,0.4245,doped PBTTT
199,591.378,0.4265,doped PBTTT
200,592.343,0.4279,doped PBTTT
201,593.307,0.4286,doped PBTTT
202,594.271,0.4291,doped PBTTT
203,595.235,0.4298,doped PBTTT
204,596.2,0.4309,doped PBTTT
205,597.164,0.4326,doped PBTTT
206,598.128,0.4344,doped PBTTT
207,599.092,0.436,doped PBTTT
208,600.056,0.4369,doped PBTTT
209,601.021,0.4373,doped PBTTT
210,601.985,0.4375,doped PBTTT
211,602.949,0.4377,doped PBTTT
212,603.913,0.4383,doped PBTTT
213,604.878,0.439,doped PBTTT
214,605.842,0.4399,doped PBTTT
215,606.806,0.441,doped PBTTT
216,607.77,0.4422,doped PBTTT
217,608.735,0.4438,doped PBTTT
218,609.699,0.4458,doped PBTTT
219,610.663,0.4483,doped PBTTT
220,611.627,0.4511,doped PBTTT
221,612.591,0.4542,doped PBTTT
222,613.556,0.4574,doped PBTTT
223,614.52,0.4609,doped PBTTT
224,615.484,0.4645,doped PBTTT
225,616.448,0.4681,doped PBTTT
226,617.413,0.4712,doped PBTTT
227,618.377,0.4733,doped PBTTT
228,619.341,0.474,doped PBTTT
229,620.305,0.4735,doped PBTTT
230,621.27,0.472,doped PBTTT
231,622.234,0.4706,doped PBTTT
232,623.198,0.4699,doped PBTTT
233,624.162,0.4706,doped PBTTT
234,625.127,0.4728,doped PBTTT
235,626.091,0.4761,doped PBTTT
236,627.055,0.4798,doped PBTTT
237,628.019,0.4831,doped PBTTT
238,628.983,0.4857,doped PBTTT
239,629.948,0.4877,doped PBTTT
240,630.912,0.4893,doped PBTTT
241,631.876,0.4906,doped PBTTT
242,632.84,0.4915,doped PBTTT
243,633.805,0.4923,doped PBTTT
244,634.769,0.4932,doped PBTTT
245,635.733,0.4945,doped PBTTT
246,636.697,0.4963,doped PBTTT
247,637.662,0.4984,doped PBTTT
248,638.626,0.5005,doped PBTTT
249,639.59,0.5024,doped PBTTT
250,640.554,0.5042,doped PBTTT
251,641.518,0.5062,doped PBTTT
252,642.483,0.509,doped PBTTT
253,643.447,0.5122,doped PBTTT
254,644.411,0.5152,doped PBTTT
255,645.375,0.5172,doped PBTTT
256,646.34,0.5176,doped PBTTT
257,647.304,0.5167,doped PBTTT
258,648.268,0.5159,doped PBTTT
259,649.232,0.5163,doped PBTTT
260,650.197,0.5186,doped PBTTT
261,651.161,0.5224,doped PBTTT
262,652.125,0.5269,doped PBTTT
263,653.089,0.5312,doped PBTTT
264,654.054,0.535,doped PBTTT
265,655.018,0.5385,doped PBTTT
266,655.982,0.5421,doped PBTTT
267,656.946,0.5458,doped PBTTT
268,657.91,0.5495,doped PBTTT
269,658.875,0.5532,doped PBTTT
270,659.839,0.5568,doped PBTTT
271,660.803,0.5602,doped PBTTT
272,661.767,0.5634,doped PBTTT
273,662.732,0.5662,doped PBTTT
274,663.696,0.5684,doped PBTTT
275,664.66,0.5701,doped PBTTT
276,665.624,0.5717,doped PBTTT
277,666.589,0.5743,doped PBTTT
278,667.553,0.5795,doped PBTTT
279,668.517,0.5875,doped PBTTT
280,669.481,0.5956,doped PBTTT
281,670.445,0.6008,doped PBTTT
282,671.41,0.6031,doped PBTTT
283,672.374,0.604,doped PBTTT
284,673.338,0.6047,doped PBTTT
285,674.302,0.6055,doped PBTTT
286,675.267,0.6065,doped PBTTT
287,676.231,0.6076,doped PBTTT
288,677.195,0.6088,doped PBTTT
289,678.159,0.6102,doped PBTTT
290,679.124,0.6119,doped PBTTT
291,680.088,0.614,doped PBTTT
292,681.052,0.6162,doped PBTTT
293,682.016,0.6184,doped PBTTT
294,682.981,0.6206,doped PBTTT
295,683.945,0.623,doped PBTTT
296,684.909,0.6255,doped PBTTT
297,685.873,0.6281,doped PBTTT
298,686.837,0.6303,doped PBTTT
299,687.802,0.6321,doped PBTTT
300,688.766,0.6335,doped PBTTT
301,689.73,0.635,doped PBTTT
302,690.694,0.6372,doped PBTTT
303,691.659,0.6405,doped PBTTT
304,692.623,0.6449,doped PBTTT
305,693.587,0.6501,doped PBTTT
306,694.551,0.6556,doped PBTTT
307,695.516,0.6609,doped PBTTT
308,696.48,0.6659,doped PBTTT
309,697.444,0.6707,doped PBTTT
310,698.408,0.6756,doped PBTTT
311,699.372,0.681,doped PBTTT
312,700.337,0.6869,doped PBTTT
313,701.301,0.6929,doped PBTTT
314,702.265,0.6989,doped PBTTT
315,703.229,0.7044,doped PBTTT
316,704.194,0.7096,doped PBTTT
317,705.158,0.7145,doped PBTTT
318,706.122,0.7195,doped PBTTT
319,707.086,0.7244,doped PBTTT
320,708.051,0.7295,doped PBTTT
321,709.015,0.7347,doped PBTTT
322,709.979,0.7404,doped PBTTT
323,710.943,0.7468,doped PBTTT
324,711.908,0.7541,doped PBTTT
325,712.872,0.7619,doped PBTTT
326,713.836,0.7694,doped PBTTT
327,714.8,0.7759,doped PBTTT
328,715.764,0.7809,doped PBTTT
329,716.729,0.7847,doped PBTTT
330,717.693,0.7879,doped PBTTT
331,718.657,0.7908,doped PBTTT
332,719.621,0.7936,doped PBTTT
333,720.586,0.7958,doped PBTTT
334,721.55,0.7969,doped PBTTT
335,722.514,0.797,doped PBTTT
336,723.478,0.7961,doped PBTTT
337,724.443,0.7949,doped PBTTT
338,725.407,0.7937,doped PBTTT
339,726.371,0.7926,doped PBTTT
340,727.335,0.7917,doped PBTTT
341,728.299,0.7911,doped PBTTT
342,729.264,0.7912,doped PBTTT
343,730.228,0.7922,doped PBTTT
344,731.192,0.7945,doped PBTTT
345,732.156,0.7983,doped PBTTT
346,733.121,0.8034,doped PBTTT
347,734.085,0.8093,doped PBTTT
348,735.049,0.8157,doped PBTTT
349,736.013,0.8222,doped PBTTT
350,736.978,0.8286,doped PBTTT
351,737.942,0.8348,doped PBTTT
352,738.906,0.8407,doped PBTTT
353,739.87,0.8465,doped PBTTT
354,740.835,0.8522,doped PBTTT
355,741.799,0.858,doped PBTTT
356,742.763,0.8639,doped PBTTT
357,743.727,0.8703,doped PBTTT
358,744.691,0.8771,doped PBTTT
359,745.656,0.8842,doped PBTTT
360,746.62,0.891,doped PBTTT
361,747.584,0.8971,doped PBTTT
362,748.548,0.902,doped PBTTT
363,749.513,0.906,doped PBTTT
364,750.477,0.9096,doped PBTTT
365,751.441,0.9137,doped PBTTT
366,752.405,0.9189,doped PBTTT
367,753.37,0.9252,doped PBTTT
368,754.334,0.9318,doped PBTTT
369,755.298,0.9376,doped PBTTT
370,756.262,0.9419,doped PBTTT
371,757.227,0.9445,doped PBTTT
372,758.191,0.9461,doped PBTTT
373,759.155,0.9475,doped PBTTT
374,760.119,0.9495,doped PBTTT
375,761.083,0.952,doped PBTTT
376,762.048,0.9546,doped PBTTT
377,763.012,0.9564,doped PBTTT
378,763.976,0.9569,doped PBTTT
379,764.94,0.9561,doped PBTTT
380,765.905,0.9545,doped PBTTT
381,766.869,0.9527,doped PBTTT
382,767.833,0.9513,doped PBTTT
383,768.797,0.9505,doped PBTTT
384,769.762,0.95,doped PBTTT
385,770.726,0.9497,doped PBTTT
386,771.69,0.9493,doped PBTTT
387,772.654,0.9488,doped PBTTT
388,773.618,0.9478,doped PBTTT
389,774.583,0.9464,doped PBTTT
390,775.547,0.9442,doped PBTTT
391,776.511,0.9411,doped PBTTT
392,777.475,0.9374,doped PBTTT
393,778.44,0.9334,doped PBTTT
394,779.404,0.9297,doped PBTTT
395,780.368,0.9268,doped PBTTT
396,781.332,0.9249,doped PBTTT
397,782.297,0.9234,doped PBTTT
398,783.261,0.9217,doped PBTTT
399,784.225,0.9192,doped PBTTT
400,785.189,0.9155,doped PBTTT
401,786.154,0.9106,doped PBTTT
402,787.118,0.905,doped PBTTT
403,788.082,0.8992,doped PBTTT
404,789.046,0.8936,doped PBTTT
405,790.01,0.8885,doped PBTTT
406,790.975,0.884,doped PBTTT
407,791.939,0.8798,doped PBTTT
408,792.903,0.876,doped PBTTT
409,793.867,0.8722,doped PBTTT
410,794.832,0.8681,doped PBTTT
411,795.796,0.8635,doped PBTTT
412,796.76,0.8584,doped PBTTT
413,797.724,0.853,doped PBTTT
414,798.689,0.8479,doped PBTTT
415,799.653,0.8434,doped PBTTT
416,800.617,0.8396,doped PBTTT
417,801.581,0.8364,doped PBTTT
418,802.545,0.8332,doped PBTTT
419,803.51,0.8297,doped PBTTT
420,804.474,0.8258,doped PBTTT
421,805.438,0.8217,doped PBTTT
422,806.402,0.8177,doped PBTTT
423,807.367,0.814,doped PBTTT
424,808.331,0.8105,doped PBTTT
425,809.295,0.8072,doped PBTTT
426,810.259,0.8041,doped PBTTT
427,811.224,0.8011,doped PBTTT
428,812.188,0.7987,doped PBTTT
429,813.152,0.7968,doped PBTTT
430,814.116,0.7956,doped PBTTT
431,815.081,0.795,doped PBTTT
432,816.045,0.7948,doped PBTTT
433,817.009,0.7952,doped PBTTT
434,817.973,0.7961,doped PBTTT
435,818.937,0.7976,doped PBTTT
436,819.902,0.7999,doped PBTTT
437,820.866,0.8026,doped PBTTT
438,821.83,0.8052,doped PBTTT
439,822.794,0.8074,doped PBTTT
440,823.759,0.8086,doped PBTTT
441,824.723,0.8088,doped PBTTT
442,825.687,0.8082,doped PBTTT
443,826.651,0.8071,doped PBTTT
444,827.616,0.8059,doped PBTTT
445,828.58,0.8047,doped PBTTT
446,829.544,0.8036,doped PBTTT
447,830.508,0.8025,doped PBTTT
448,831.472,0.8016,doped PBTTT
449,832.437,0.8009,doped PBTTT
450,833.401,0.8007,doped PBTTT
451,834.365,0.8012,doped PBTTT
452,835.329,0.8027,doped PBTTT
453,836.294,0.8053,doped PBTTT
454,837.258,0.809,doped PBTTT
455,838.222,0.8138,doped PBTTT
456,839.186,0.8197,doped PBTTT
457,840.151,0.8266,doped PBTTT
458,841.115,0.8349,doped PBTTT
459,842.079,0.8445,doped PBTTT
460,843.043,0.8554,doped PBTTT
461,844.008,0.867,doped PBTTT
462,844.972,0.8792,doped PBTTT
463,845.936,0.8917,doped PBTTT
464,846.9,0.9046,doped PBTTT
465,847.864,0.9185,doped PBTTT
466,848.829,0.9336,doped PBTTT
467,849.793,0.9501,doped PBTTT
468,850.757,0.968,doped PBTTT
469,851.721,0.9868,doped PBTTT
470,852.686,1.006,doped PBTTT
471,853.65,1.026,doped PBTTT
472,854.614,1.047,doped PBTTT
473,855.578,1.067,doped PBTTT
474,856.543,1.088,doped PBTTT
475,857.507,1.109,doped PBTTT
476,858.471,1.13,doped PBTTT
477,859.435,1.151,doped PBTTT
478,860.399,1.173,doped PBTTT
479,861.364,1.197,doped PBTTT
480,862.328,1.221,doped PBTTT
481,863.292,1.246,doped PBTTT
482,864.256,1.271,doped PBTTT
483,865.221,1.296,doped PBTTT
484,866.185,1.32,doped PBTTT
485,867.149,1.344,doped PBTTT
486,868.113,1.367,doped PBTTT
487,869.078,1.39,doped PBTTT
488,870.042,1.411,doped PBTTT
489,871.006,1.432,doped PBTTT
490,871.97,1.452,doped PBTTT
491,872.935,1.473,doped PBTTT
492,873.899,1.497,doped PBTTT
493,874.863,1.522,doped PBTTT
494,875.827,1.547,doped PBTTT
495,876.791,1.572,doped PBTTT
496,877.756,1.596,doped PBTTT
497,878.72,1.619,doped PBTTT
498,879.684,1.643,doped PBTTT
499,880.648,1.669,doped PBTTT
500,881.613,1.696,doped PBTTT
501,882.577,1.722,doped PBTTT
502,883.541,1.745,doped PBTTT
503,884.505,1.763,doped PBTTT
504,885.47,1.78,doped PBTTT
505,886.434,1.797,doped PBTTT
506,887.398,1.816,doped PBTTT
507,888.362,1.837,doped PBTTT
508,889.326,1.857,doped PBTTT
509,890.291,1.876,doped PBTTT
510,891.255,1.894,doped PBTTT
511,892.219,1.912,doped PBTTT
512,893.183,1.931,doped PBTTT
513,894.148,1.95,doped PBTTT
514,895.112,1.966,doped PBTTT
515,896.076,1.975,doped PBTTT
516,897.04,1.974,doped PBTTT
517,898.005,1.965,doped PBTTT
518,898.969,1.953,doped PBTTT
519,899.933,1.941,doped PBTTT
520,900.897,1.935,doped PBTTT
521,901.862,1.934,doped PBTTT
522,902.826,1.936,doped PBTTT
523,903.79,1.94,doped PBTTT
524,904.754,1.94,doped PBTTT
525,905.718,1.936,doped PBTTT
526,906.683,1.924,doped PBTTT
527,907.647,1.909,doped PBTTT
528,908.611,1.893,doped PBTTT
529,909.575,1.879,doped PBTTT
530,910.54,1.872,doped PBTTT
531,911.504,1.869,doped PBTTT
532,912.468,1.868,doped PBTTT
533,913.432,1.866,doped PBTTT
534,914.397,1.858,doped PBTTT
535,915.361,1.844,doped PBTTT
536,916.325,1.825,doped PBTTT
537,917.289,1.803,doped PBTTT
538,918.253,1.779,doped PBTTT
539,919.218,1.756,doped PBTTT
540,920.182,1.734,doped PBTTT
541,921.146,1.715,doped PBTTT
542,922.11,1.698,doped PBTTT
543,923.075,1.685,doped PBTTT
544,924.039,1.673,doped PBTTT
545,925.003,1.664,doped PBTTT
546,925.967,1.654,doped PBTTT
547,926.932,1.644,doped PBTTT
548,927.896,1.633,doped PBTTT
549,928.86,1.62,doped PBTTT
550,929.824,1.608,doped PBTTT
551,930.789,1.595,doped PBTTT
552,931.753,1.583,doped PBTTT
553,932.717,1.571,doped PBTTT
554,933.681,1.56,doped PBTTT
555,934.645,1.55,doped PBTTT
556,935.61,1.54,doped PBTTT
557,936.574,1.529,doped PBTTT
558,937.538,1.518,doped PBTTT
559,938.502,1.506,doped PBTTT
560,939.467,1.494,doped PBTTT
561,940.431,1.483,doped PBTTT
562,941.395,1.472,doped PBTTT
563,942.359,1.462,doped PBTTT
564,943.324,1.453,doped PBTTT
565,944.288,1.444,doped PBTTT
566,945.252,1.433,doped PBTTT
567,946.216,1.421,doped PBTTT
568,947.18,1.408,doped PBTTT
569,948.145,1.395,doped PBTTT
[...]
7740,4002.836,0.03608,neat PBTTT
7741,4003.801,0.0361,neat PBTTT
7742,4004.765,0.0361,neat PBTTT
7743,4005.73,0.03608,neat PBTTT
7744,4006.69,0.03605,neat PBTTT
7745,4007.658,0.03601,neat PBTTT
7746,4008.62,0.03599,neat PBTTT
7747,4009.586,0.03598,neat PBTTT
7748,4010.55,0.03599,neat PBTTT
7749,4011.514,0.03601,neat PBTTT
7750,4012.48,0.03606,neat PBTTT
7751,4013.44,0.03612,neat PBTTT
7752,4014.407,0.0362,neat PBTTT
7753,4015.37,0.03626,neat PBTTT
7754,4016.336,0.03628,neat PBTTT
7755,4017.3,0.03625,neat PBTTT
7756,4018.264,0.03617,neat PBTTT
7757,4019.228,0.03608,neat PBTTT
7758,4020.19,0.03603,neat PBTTT
7759,4021.157,0.03603,neat PBTTT
7760,4022.12,0.03607,neat PBTTT
7761,4023.085,0.03613,neat PBTTT
7762,4024.05,0.03616,neat PBTTT
7763,4025.014,0.03614,neat PBTTT
7764,4025.978,0.03609,neat PBTTT
7765,4026.942,0.036,neat PBTTT
7766,4027.906,0.03593,neat PBTTT
7767,4028.87,0.03588,neat PBTTT
7768,4029.835,0.03588,neat PBTTT
7769,4030.8,0.03591,neat PBTTT
7770,4031.763,0.03596,neat PBTTT
7771,4032.728,0.03601,neat PBTTT
7772,4033.692,0.03607,neat PBTTT
7773,4034.656,0.03611,neat PBTTT
7774,4035.62,0.03613,neat PBTTT
7775,4036.585,0.03614,neat PBTTT
7776,4037.55,0.03611,neat PBTTT
7777,4038.513,0.03606,neat PBTTT
7778,4039.48,0.03598,neat PBTTT
7779,4040.441,0.0359,neat PBTTT
7780,4041.406,0.03584,neat PBTTT
7781,4042.37,0.03581,neat PBTTT
7782,4043.33,0.03581,neat PBTTT
7783,4044.298,0.0358,neat PBTTT
7784,4045.263,0.03579,neat PBTTT
7785,4046.23,0.03577,neat PBTTT
7786,4047.191,0.03576,neat PBTTT
7787,4048.155,0.03577,neat PBTTT
7788,4049.12,0.0358,neat PBTTT
7789,4050.08,0.03584,neat PBTTT
7790,4051.048,0.03585,neat PBTTT
7791,4052.012,0.0358,neat PBTTT
7792,4052.98,0.03571,neat PBTTT
7793,4053.941,0.03558,neat PBTTT
7794,4054.905,0.03547,neat PBTTT
7795,4055.869,0.03539,neat PBTTT
7796,4056.833,0.03537,neat PBTTT
7797,4057.798,0.03541,neat PBTTT
7798,4058.762,0.0355,neat PBTTT
7799,4059.73,0.03563,neat PBTTT
7800,4060.69,0.03577,neat PBTTT
7801,4061.655,0.03592,neat PBTTT
7802,4062.619,0.03603,neat PBTTT
7803,4063.583,0.03609,neat PBTTT
7804,4064.547,0.03607,neat PBTTT
7805,4065.512,0.03599,neat PBTTT
7806,4066.48,0.03585,neat PBTTT
7807,4067.44,0.03568,neat PBTTT
7808,4068.4,0.03552,neat PBTTT
7809,4069.368,0.03538,neat PBTTT
7810,4070.333,0.03528,neat PBTTT
7811,4071.297,0.03521,neat PBTTT
7812,4072.261,0.03519,neat PBTTT
7813,4073.225,0.03521,neat PBTTT
7814,4074.19,0.03526,neat PBTTT
7815,4075.15,0.03533,neat PBTTT
7816,4076.118,0.03541,neat PBTTT
7817,4077.08,0.03547,neat PBTTT
7818,4078.047,0.03551,neat PBTTT
7819,4079.011,0.03553,neat PBTTT
7820,4079.975,0.03552,neat PBTTT
7821,4080.94,0.03549,neat PBTTT
7822,4081.9,0.03546,neat PBTTT
7823,4082.868,0.03543,neat PBTTT
7824,4083.83,0.03539,neat PBTTT
7825,4084.796,0.03536,neat PBTTT
7826,4085.76,0.03532,neat PBTTT
7827,4086.725,0.03528,neat PBTTT
7828,4087.69,0.03528,neat PBTTT
7829,4088.653,0.0353,neat PBTTT
7830,4089.617,0.03538,neat PBTTT
7831,4090.58,0.03548,neat PBTTT
7832,4091.546,0.03557,neat PBTTT
7833,4092.51,0.03563,neat PBTTT
7834,4093.474,0.03561,neat PBTTT
7835,4094.44,0.03553,neat PBTTT
7836,4095.403,0.03539,neat PBTTT
7837,4096.367,0.03526,neat PBTTT
7838,4097.331,0.03518,neat PBTTT
7839,4098.295,0.03518,neat PBTTT
7840,4099.26,0.03525,neat PBTTT
7841,4100.224,0.03536,neat PBTTT
7842,4101.188,0.03547,neat PBTTT
7843,4102.152,0.03553,neat PBTTT
7844,4103.117,0.03553,neat PBTTT
7845,4104.081,0.03549,neat PBTTT
7846,4105.045,0.03545,neat PBTTT
7847,4106.009,0.03542,neat PBTTT
7848,4106.974,0.03543,neat PBTTT
7849,4107.938,0.03546,neat PBTTT
7850,4108.902,0.03547,neat PBTTT
7851,4109.866,0.03544,neat PBTTT
7852,4110.831,0.03535,neat PBTTT
7853,4111.795,0.03523,neat PBTTT
7854,4112.759,0.03511,neat PBTTT
7855,4113.723,0.03505,neat PBTTT
7856,4114.687,0.03506,neat PBTTT
7857,4115.652,0.03514,neat PBTTT
7858,4116.616,0.03525,neat PBTTT
7859,4117.58,0.03533,neat PBTTT
7860,4118.544,0.03534,neat PBTTT
7861,4119.509,0.03526,neat PBTTT
7862,4120.473,0.03511,neat PBTTT
7863,4121.437,0.03497,neat PBTTT
7864,4122.401,0.03489,neat PBTTT
7865,4123.366,0.03489,neat PBTTT
7866,4124.33,0.03497,neat PBTTT
7867,4125.294,0.03506,neat PBTTT
7868,4126.258,0.03512,neat PBTTT
7869,4127.222,0.0351,neat PBTTT
7870,4128.187,0.03502,neat PBTTT
7871,4129.151,0.03493,neat PBTTT
7872,4130.115,0.03489,neat PBTTT
7873,4131.08,0.03492,neat PBTTT
7874,4132.044,0.03502,neat PBTTT
7875,4133.008,0.03515,neat PBTTT
7876,4133.972,0.03526,neat PBTTT
7877,4134.936,0.03532,neat PBTTT
7878,4135.901,0.03532,neat PBTTT
7879,4136.865,0.03528,neat PBTTT
7880,4137.83,0.03523,neat PBTTT
7881,4138.793,0.03518,neat PBTTT
7882,4139.758,0.03513,neat PBTTT
7883,4140.722,0.03509,neat PBTTT
7884,4141.686,0.03504,neat PBTTT
7885,4142.65,0.03499,neat PBTTT
7886,4143.61,0.03496,neat PBTTT
7887,4144.58,0.03495,neat PBTTT
7888,4145.543,0.03497,neat PBTTT
7889,4146.51,0.03499,neat PBTTT
7890,4147.471,0.035,neat PBTTT
7891,4148.436,0.03498,neat PBTTT
7892,4149.4,0.03492,neat PBTTT
7893,4150.36,0.03484,neat PBTTT
7894,4151.33,0.0348,neat PBTTT
7895,4152.293,0.0348,neat PBTTT
7896,4153.26,0.03486,neat PBTTT
7897,4154.221,0.03496,neat PBTTT
7898,4155.185,0.03505,neat PBTTT
7899,4156.149,0.03509,neat PBTTT
7900,4157.11,0.03505,neat PBTTT
7901,4158.08,0.03495,neat PBTTT
7902,4159.042,0.03479,neat PBTTT
7903,4160.01,0.03464,neat PBTTT
7904,4160.971,0.03452,neat PBTTT
7905,4161.935,0.03448,neat PBTTT
7906,4162.899,0.0345,neat PBTTT
7907,4163.863,0.03457,neat PBTTT
7908,4164.83,0.03465,neat PBTTT
7909,4165.792,0.03471,neat PBTTT
7910,4166.76,0.03476,neat PBTTT
7911,4167.72,0.03478,neat PBTTT
7912,4168.685,0.03479,neat PBTTT
7913,4169.649,0.03478,neat PBTTT
7914,4170.613,0.03477,neat PBTTT
7915,4171.577,0.03475,neat PBTTT
7916,4172.541,0.03472,neat PBTTT
7917,4173.51,0.0347,neat PBTTT
7918,4174.47,0.03467,neat PBTTT
7919,4175.434,0.03463,neat PBTTT
7920,4176.398,0.03457,neat PBTTT
7921,4177.363,0.03449,neat PBTTT
7922,4178.327,0.03439,neat PBTTT
7923,4179.291,0.03431,neat PBTTT
7924,4180.255,0.03425,neat PBTTT
7925,4181.22,0.03424,neat PBTTT
7926,4182.184,0.03428,neat PBTTT
7927,4183.148,0.03435,neat PBTTT
7928,4184.112,0.03445,neat PBTTT
7929,4185.076,0.03453,neat PBTTT
7930,4186.041,0.03459,neat PBTTT
7931,4187.005,0.03459,neat PBTTT
7932,4187.969,0.03456,neat PBTTT
7933,4188.933,0.0345,neat PBTTT
7934,4189.898,0.03446,neat PBTTT
7935,4190.862,0.03444,neat PBTTT
7936,4191.826,0.03445,neat PBTTT
7937,4192.79,0.03446,neat PBTTT
7938,4193.755,0.03445,neat PBTTT
7939,4194.719,0.0344,neat PBTTT
7940,4195.683,0.03432,neat PBTTT
7941,4196.647,0.03423,neat PBTTT
7942,4197.612,0.03416,neat PBTTT
7943,4198.576,0.03413,neat PBTTT
7944,4199.54,0.03413,neat PBTTT
7945,4200.504,0.03417,neat PBTTT
7946,4201.468,0.03421,neat PBTTT
7947,4202.433,0.03424,neat PBTTT
7948,4203.397,0.03428,neat PBTTT
7949,4204.361,0.0343,neat PBTTT
7950,4205.325,0.03433,neat PBTTT
7951,4206.29,0.03437,neat PBTTT
7952,4207.254,0.03439,neat PBTTT
7953,4208.218,0.03441,neat PBTTT
7954,4209.182,0.0344,neat PBTTT
7955,4210.147,0.03434,neat PBTTT
7956,4211.111,0.03423,neat PBTTT
7957,4212.075,0.03408,neat PBTTT
7958,4213.04,0.03392,neat PBTTT
7959,4214.003,0.03383,neat PBTTT
7960,4214.968,0.03384,neat PBTTT
7961,4215.932,0.03396,neat PBTTT
7962,4216.896,0.03415,neat PBTTT
7963,4217.86,0.03434,neat PBTTT
7964,4218.825,0.03447,neat PBTTT
7965,4219.79,0.03448,neat PBTTT
7966,4220.753,0.0344,neat PBTTT
7967,4221.72,0.03427,neat PBTTT
7968,4222.682,0.03414,neat PBTTT
7969,4223.646,0.03403,neat PBTTT
7970,4224.61,0.03397,neat PBTTT
7971,4225.57,0.03394,neat PBTTT
7972,4226.54,0.03394,neat PBTTT
7973,4227.503,0.03398,neat PBTTT
7974,4228.47,0.03404,neat PBTTT
7975,4229.431,0.03411,neat PBTTT
7976,4230.395,0.03414,neat PBTTT
7977,4231.36,0.03414,neat PBTTT
7978,4232.32,0.03409,neat PBTTT
7979,4233.288,0.034,neat PBTTT
7980,4234.252,0.03389,neat PBTTT
7981,4235.22,0.03378,neat PBTTT
7982,4236.181,0.0337,neat PBTTT
7983,4237.145,0.03366,neat PBTTT
7984,4238.109,0.03367,neat PBTTT
7985,4239.07,0.03371,neat PBTTT
7986,4240.038,0.03378,neat PBTTT
7987,4241.002,0.03383,neat PBTTT
7988,4241.97,0.03384,neat PBTTT
7989,4242.931,0.03381,neat PBTTT
7990,4243.895,0.03375,neat PBTTT
7991,4244.859,0.03369,neat PBTTT
7992,4245.823,0.03365,neat PBTTT
7993,4246.787,0.03363,neat PBTTT
7994,4247.752,0.03364,neat PBTTT
7995,4248.72,0.03368,neat PBTTT
7996,4249.68,0.03376,neat PBTTT
7997,4250.644,0.03386,neat PBTTT
7998,4251.609,0.03395,neat PBTTT
7999,4252.573,0.03401,neat PBTTT
8000,4253.537,0.03398,neat PBTTT
8001,4254.501,0.03388,neat PBTTT
8002,4255.47,0.03373,neat PBTTT
8003,4256.43,0.03356,neat PBTTT
8004,4257.394,0.03344,neat PBTTT
8005,4258.358,0.0334,neat PBTTT